t,ax,ay,az,gx,gy,gz,qw,qi,qj,qk
0.0159128,-0.371094,0.00390625,0.382812,0,0,0,1,0,0,0
0.0446027,0.242188,0.15625,-0.1875,0,0,0,1,0,0,0
0.0704908,0.242188,0.15625,-0.1875,0.0175781,0.0136719,-0.078125,1,0,0,0
0.097072,-2.375,2.75781,9.26562,0.0175781,0.0136719,-0.078125,1,0,0,0
0.121811,1.20312,0.238281,0.53125,0.0175781,0.0136719,-0.078125,1,0,0,0
0.148894,1.20312,0.238281,0.53125,-0.248047,0.0429688,0.107422,1,0,0,0
0.174922,-2.71875,2.33594,8.3125,-0.248047,0.0429688,0.107422,1,0,0,0
0.203772,-2.71875,2.33594,8.3125,-0.0839844,-0.203125,0.0761719,1,0,0,0
0.230225,-2.60547,2.45312,9.19922,-0.0839844,-0.203125,0.0761719,1,0,0,0
0.257717,-3.14062,2.48828,9.53906,-0.0839844,-0.203125,0.0761719,1,0,0,0
0.283816,-0.00390625,0.078125,0.871094,-0.0839844,-0.203125,0.0761719,1,0,0,0
0.312345,-0.00390625,0.078125,0.871094,-0.193359,-0.314453,0.0625,1,0,0,0
0.33908,-2.26172,3.21875,9.19922,-0.193359,-0.314453,0.0625,1,0,0,0
0.365117,-1.95312,3.25781,8.88672,-0.193359,-0.314453,0.0625,1,0,0,0
0.393696,-2.375,3.14062,9.03906,-0.193359,-0.314453,0.0625,1,0,0,0
0.420776,-2.375,3.14062,9.03906,-0.359375,-0.378906,0.455078,1,0,0,0
0.448312,-2.375,3.14062,9.03906,-0.357422,-0.351562,0.396484,1,0,0,0
0.474398,-0.460938,0.585938,-0.636719,-0.357422,-0.351562,0.396484,1,0,0,0
0.50324,-0.460938,0.585938,-0.636719,-0.181641,-0.412109,0.462891,1,0,0,0
0.530407,-2.87109,2.22266,8.77344,-0.181641,-0.412109,0.462891,1,0,0,0
0.557956,-2.56641,2.67969,9.54297,-0.181641,-0.412109,0.462891,1,0,0,0
0.584487,-0.15625,0.386719,-0.429688,-0.181641,-0.412109,0.462891,1,0,0,0
0.612961,-0.15625,0.386719,-0.429688,-0.0390625,0.0429688,0.429688,1,0,0,0
0.640024,-0.15625,0.386719,-0.429688,0.0625,0.0820312,0.347656,1,0,0,0
0.667543,-1.99219,1.72266,9.65234,0.0625,0.0820312,0.347656,1,0,0,0
0.693935,-1.99219,1.72266,9.65234,-0.0976562,0.0175781,0.148438,1,0,0,0
0.722567,-0.84375,1.87891,9.38672,-0.0976562,0.0175781,0.148438,1,0,0,0
0.749702,-0.84375,1.87891,9.38672,0.111328,-0.0175781,0.0722656,1,0,0,0
0.77582,-0.84375,1.87891,9.38672,0.0507812,-0.171875,-0.0371094,1,0,0,0
0.804414,-0.84375,1.87891,9.38672,-0.078125,-0.320312,0.0839844,1,0,0,0
0.831528,-0.84375,1.87891,9.38672,-0.277344,-0.417969,0.322266,1,0,0,0
0.860024,-0.421875,1.57031,11.2617,-0.277344,-0.417969,0.322266,1,0,0,0
0.886119,-0.230469,1.99219,10.7656,-0.277344,-0.417969,0.322266,1,0,0,0
0.914092,-0.230469,1.99219,10.7656,-0.226562,-0.845703,-0.046875,1,0,0,0
0.94118,-0.230469,1.99219,10.7656,-0.226562,-0.923828,0.136719,1,0,0,0
0.969995,-0.230469,1.99219,10.7656,-0.246094,-0.982422,0.376953,1,0,0,0
0.996023,-0.351562,-0.113281,0.0859375,-0.246094,-0.982422,0.376953,1,0,0,0
1.02418,-0.351562,-0.113281,0.0859375,-0.277344,-0.992188,0.349609,1,0,0,0
1.05126,-0.765625,1.03516,9.34375,-0.277344,-0.992188,0.349609,1,0,0,0
1.07873,-0.765625,1.03516,9.34375,-0.103516,-0.798828,0.1875,1,0,0,0
1.10475,-0.113281,0.84375,9.69141,-0.103516,-0.798828,0.1875,1,0,0,0
1.13334,-0.113281,0.84375,9.69141,-0.169922,-0.882812,0.0175781,1,0,0,0
1.16035,1.1875,1.45703,9.64844,-0.169922,-0.882812,0.0175781,1,0,0,0
1.18846,2.29688,2.60547,10.0742,-0.169922,-0.882812,0.0175781,1,0,0,0
1.21448,2.29688,2.60547,10.0742,-0.169922,-0.882812,0.0175781,0.991028,0.0809937,-0.0675049,0.0822144
1.24304,2.29688,2.60547,10.0742,-0.416016,-0.722656,0.572266,0.991028,0.0809937,-0.0675049,0.0822144
1.27009,2.29688,2.60547,10.0742,-0.613281,-0.8125,0.539062,0.991028,0.0809937,-0.0675049,0.0822144
1.29757,2.29688,0.496094,10.0742,-0.613281,-0.8125,0.539062,0.991028,0.0809937,-0.0675049,0.0822144
1.32406,2.29688,0.496094,10.0742,-0.613281,-0.8125,0.539062,0.986389,0.0568848,-0.113342,0.104797
1.35196,2.52734,0.917969,10.4961,-0.613281,-0.8125,0.539062,0.986389,0.0568848,-0.113342,0.104797
1.37806,2.98828,0.421875,10.0742,-0.613281,-0.8125,0.539062,0.986389,0.0568848,-0.113342,0.104797
1.40458,2.98828,0.421875,10.0742,-0.380859,-0.919922,0.226562,0.986389,0.0568848,-0.113342,0.104797
1.43311,2.98828,0.421875,10.0742,-0.380859,-1.08398,0.0976562,0.986389,0.0568848,-0.113342,0.104797
1.45982,2.87109,0.804688,9.04297,-0.380859,-1.08398,0.0976562,0.986389,0.0568848,-0.113342,0.104797
1.48585,3.10156,0.726562,8.23438,-0.380859,-1.08398,0.0976562,0.986389,0.0568848,-0.113342,0.104797
1.51371,3.10156,0.726562,8.23438,-0.285156,-0.771484,0.158203,0.986389,0.0568848,-0.113342,0.104797
1.54079,3.10156,0.726562,8.23438,-0.277344,-0.964844,-0.117188,0.986389,0.0568848,-0.113342,0.104797
1.56831,3.10156,0.726562,8.23438,-0.148438,-0.824219,-0.154297,0.986389,0.0568848,-0.113342,0.104797
1.59443,-1.23047,0.222656,-0.214844,-0.148438,-0.824219,-0.154297,0.986389,0.0568848,-0.113342,0.104797
1.62252,5.01953,0.691406,8.46094,-0.148438,-0.824219,-0.154297,0.986389,0.0568848,-0.113342,0.104797
1.64957,4.63672,-0.34375,8.96094,-0.148438,-0.824219,-0.154297,0.986389,0.0568848,-0.113342,0.104797
1.67562,4.75,0.078125,9.54297,-0.148438,-0.824219,-0.154297,0.986389,0.0568848,-0.113342,0.104797
1.70415,4.75,0.078125,9.54297,-0.357422,-0.861328,0.015625,0.986389,0.0568848,-0.113342,0.104797
1.73119,4.75,0.078125,9.54297,-0.181641,-0.839844,-0.0117188,0.986389,0.0568848,-0.113342,0.104797
1.75929,5.51562,0.613281,8.39062,-0.181641,-0.839844,-0.0117188,0.986389,0.0568848,-0.113342,0.104797
1.78534,5.25,0,7.62891,-0.181641,-0.839844,-0.0117188,0.986389,0.0568848,-0.113342,0.104797
1.81395,5.25,0,7.62891,-0.171875,-0.804688,0.0683594,0.986389,0.0568848,-0.113342,0.104797
1.83998,5.25,0,7.62891,-0.164062,-0.814453,0.105469,0.986389,0.0568848,-0.113342,0.104797
1.86608,5.25,0,7.62891,-0.142578,-0.705078,-0.00976562,0.986389,0.0568848,-0.113342,0.104797
1.89459,5.25,0,7.62891,-0.169922,-0.728516,-0.0273438,0.986389,0.0568848,-0.113342,0.104797
1.92172,5.25,0,7.62891,-0.210938,-0.720703,0.181641,0.986389,0.0568848,-0.113342,0.104797
1.95024,6.62891,-0.535156,7.47266,-0.210938,-0.720703,0.181641,0.986389,0.0568848,-0.113342,0.104797
1.9763,5.97656,-1.26562,7.08594,-0.210938,-0.720703,0.181641,0.986389,0.0568848,-0.113342,0.104797
2.00415,5.97656,-1.26562,7.08594,-0.0546875,-0.953125,-0.248047,0.986389,0.0568848,-0.113342,0.104797
2.03122,5.97656,-1.26562,7.08594,-0.146484,-0.871094,-0.0605469,0.986389,0.0568848,-0.113342,0.104797
2.0587,5.97656,-1.26562,7.08594,-0.0703125,-0.806641,0.00195312,0.986389,0.0568848,-0.113342,0.104797
2.08476,7.46875,-0.496094,6.66406,-0.0703125,-0.806641,0.00195312,0.986389,0.0568848,-0.113342,0.104797
2.11362,7.46875,-0.496094,6.66406,-0.119141,-0.761719,0.0488281,0.986389,0.0568848,-0.113342,0.104797
2.14072,7.66016,-0.84375,5.85938,-0.119141,-0.761719,0.0488281,0.986389,0.0568848,-0.113342,0.104797
2.16819,7.66016,-0.84375,5.85938,0.0644531,-0.849609,-0.00585938,0.986389,0.0568848,-0.113342,0.104797
2.19446,0.21875,0.558594,-0.0859375,0.0644531,-0.849609,-0.00585938,0.986389,0.0568848,-0.113342,0.104797
2.22297,0.21875,0.558594,-0.0859375,-0.0351562,-0.667969,0.0957031,0.986389,0.0568848,-0.113342,0.104797
2.25016,7.73828,-0.882812,5.32422,-0.0351562,-0.667969,0.0957031,0.986389,0.0568848,-0.113342,0.104797
2.27775,7.97266,-1.03516,5.25,-0.0351562,-0.667969,0.0957031,0.986389,0.0568848,-0.113342,0.104797
2.3043,7.97266,-1.03516,5.25,-0.0351562,-0.667969,0.0957031,0.862549,0.0155029,-0.497864,0.0892944
2.33282,7.97266,-1.03516,5.25,0.0644531,-0.775391,-0.144531,0.862549,0.0155029,-0.497864,0.0892944
2.35988,7.97266,-1.03516,5.25,0.0449219,-0.667969,-0.113281,0.862549,0.0155029,-0.497864,0.0892944
2.38736,8.35547,-0.765625,3.48438,0.0449219,-0.667969,-0.113281,0.862549,0.0155029,-0.497864,0.0892944
2.41375,8.35547,-0.765625,3.48438,0.271484,-0.626953,-0.132812,0.862549,0.0155029,-0.497864,0.0892944
2.44229,7.58984,-0.574219,4.13672,0.271484,-0.626953,-0.132812,0.862549,0.0155029,-0.497864,0.0892944
2.46938,7.51172,-0.34375,4.02344,0.271484,-0.626953,-0.132812,0.862549,0.0155029,-0.497864,0.0892944
2.49545,7.51172,-0.34375,4.02344,-0.171875,-0.474609,0.0761719,0.862549,0.0155029,-0.497864,0.0892944
2.52398,7.51172,-0.34375,4.02344,-0.0742188,-0.396484,0.158203,0.862549,0.0155029,-0.497864,0.0892944
2.55123,7.51172,-0.34375,4.02344,-0.0585938,-0.0957031,0.220703,0.862549,0.0155029,-0.497864,0.0892944
2.57934,7.62891,-1.1875,3.48438,-0.0585938,-0.0957031,0.220703,0.862549,0.0155029,-0.497864,0.0892944
2.6057,8.00781,-0.957031,3.17969,-0.0585938,-0.0957031,0.220703,0.862549,0.0155029,-0.497864,0.0892944
2.6343,8.00781,-0.957031,3.17969,-0.0390625,-0.185547,-0.154297,0.862549,0.0155029,-0.497864,0.0892944
2.66143,8.00781,-0.957031,3.17969,-0.179688,-0.101562,0.0703125,0.862549,0.0155029,-0.497864,0.0892944
2.68965,8.00781,-0.957031,3.17969,-0.0703125,-0.0488281,-0.101562,0.862549,0.0155029,-0.497864,0.0892944
2.71454,-0.207031,-0.40625,-0.34375,-0.0703125,-0.0488281,-0.101562,0.862549,0.0155029,-0.497864,0.0892944
2.74111,-0.207031,-0.40625,-0.34375,-0.0644531,-0.136719,-0.251953,0.862549,0.0155029,-0.497864,0.0892944
2.76631,9.80469,0.230469,2.98828,-0.0644531,-0.136719,-0.251953,0.862549,0.0155029,-0.497864,0.0892944
2.79333,0.421875,-0.0976562,-0.457031,-0.0644531,-0.136719,-0.251953,0.862549,0.0155029,-0.497864,0.0892944
2.82036,0.421875,-0.0976562,-0.457031,-0.150391,-0.0351562,0.126953,0.862549,0.0155029,-0.497864,0.0892944
2.84793,9.26562,-0.84375,3.48438,-0.150391,-0.0351562,0.126953,0.862549,0.0155029,-0.497864,0.0892944
2.87406,9.26562,-0.84375,3.48438,-0.03125,-0.128906,-0.00585938,0.862549,0.0155029,-0.497864,0.0892944
2.90259,9.26562,-0.84375,3.48438,-0.167969,-0.0332031,0.119141,0.862549,0.0155029,-0.497864,0.0892944
2.92964,9.26562,-0.84375,3.48438,-0.121094,0.166016,0.115234,0.862549,0.0155029,-0.497864,0.0892944
2.95567,9.26562,-0.84375,3.48438,-0.0351562,-0.117188,0.154297,0.862549,0.0155029,-0.497864,0.0892944
2.9842,9.26562,-0.84375,3.48438,0.0917969,-0.015625,-0.0625,0.862549,0.0155029,-0.497864,0.0892944
3.01097,9.19531,0.652344,3.64062,0.0917969,-0.015625,-0.0625,0.862549,0.0155029,-0.497864,0.0892944
3.03907,9.04297,-0.421875,2.45312,0.0917969,-0.015625,-0.0625,0.862549,0.0155029,-0.497864,0.0892944
3.06511,-0.4375,0.0351562,-0.28125,0.0917969,-0.015625,-0.0625,0.862549,0.0155029,-0.497864,0.0892944
3.09364,-0.4375,0.0351562,-0.28125,-0.00195312,-0.0703125,0.0761719,0.862549,0.0155029,-0.497864,0.0892944
3.12068,-0.4375,0.0351562,-0.28125,0.0585938,0.00976562,-0.0078125,0.862549,0.0155029,-0.497864,0.0892944
3.14881,9.46094,-0.269531,3.41016,0.0585938,0.00976562,-0.0078125,0.862549,0.0155029,-0.497864,0.0892944
3.17485,0.476562,0.226562,-0.378906,0.0585938,0.00976562,-0.0078125,0.862549,0.0155029,-0.497864,0.0892944
3.20377,0.476562,0.226562,-0.378906,0.0429688,-0.0214844,0.154297,0.862549,0.0155029,-0.497864,0.0892944
3.23089,9.42578,-0.917969,3.37109,0.0429688,-0.0214844,0.154297,0.862549,0.0155029,-0.497864,0.0892944
3.25839,9.42578,-0.917969,3.37109,0.0214844,0.0605469,0.0332031,0.862549,0.0155029,-0.497864,0.0892944
3.2846,0.199219,-0.414062,0.265625,0.0214844,0.0605469,0.0332031,0.862549,0.0155029,-0.497864,0.0892944
3.31313,0.199219,-0.414062,0.265625,0.0175781,-0.140625,-0.0136719,0.862549,0.0155029,-0.497864,0.0892944
3.34033,9.92578,-0.535156,3.02734,0.0175781,-0.140625,-0.0136719,0.862549,0.0155029,-0.497864,0.0892944
3.36701,8.96484,-1.07422,3.94531,0.0175781,-0.140625,-0.0136719,0.862549,0.0155029,-0.497864,0.0892944
3.39488,8.96484,-1.07422,3.94531,-0.224609,0.078125,0.28125,0.862549,0.0155029,-0.497864,0.0892944
3.42201,8.96484,-1.07422,3.94531,-0.09375,-0.0683594,0.0449219,0.862549,0.0155029,-0.497864,0.0892944
3.45074,8.96484,-1.07422,3.94531,0.238281,-0.115234,-0.152344,0.862549,0.0155029,-0.497864,0.0892944
3.47679,9.00391,-1.07422,3.10156,0.238281,-0.115234,-0.152344,0.862549,0.0155029,-0.497864,0.0892944
3.50467,-0.449219,-0.183594,0.210938,0.238281,-0.115234,-0.152344,0.862549,0.0155029,-0.497864,0.0892944
3.5311,9.26562,-1.10938,2.41406,0.238281,-0.115234,-0.152344,0.862549,0.0155029,-0.497864,0.0892944
3.55857,9.22656,-0.996094,3.25781,0.238281,-0.115234,-0.152344,0.862549,0.0155029,-0.497864,0.0892944
3.58476,0.230469,0.144531,0.328125,0.238281,-0.115234,-0.152344,0.862549,0.0155029,-0.497864,0.0892944
3.61324,0.230469,0.144531,0.328125,-0.101562,-0.0390625,0.0214844,0.862549,0.0155029,-0.497864,0.0892944
3.64008,9.07812,-0.996094,2.83594,-0.101562,-0.0390625,0.0214844,0.862549,0.0155029,-0.497864,0.0892944
3.66613,9.6875,-0.535156,3.41016,-0.101562,-0.0390625,0.0214844,0.862549,0.0155029,-0.497864,0.0892944
3.69402,9.6875,-0.535156,3.41016,0.0195312,0.0371094,-0.0371094,0.862549,0.0155029,-0.497864,0.0892944
3.72107,9.6875,-0.535156,3.41016,-0.105469,-0.0292969,-0.0078125,0.862549,0.0155029,-0.497864,0.0892944
3.74855,9.6875,-0.535156,3.41016,0.0644531,0.0078125,0.0117188,0.862549,0.0155029,-0.497864,0.0892944
3.77465,0.0234375,0.0664062,0.128906,0.0644531,0.0078125,0.0117188,0.862549,0.0155029,-0.497864,0.0892944
3.80304,0.0234375,0.0664062,0.128906,-0.0859375,-0.0078125,0,0.862549,0.0155029,-0.497864,0.0892944
3.83011,8.81641,-0.996094,2.64453,-0.0859375,-0.0078125,0,0.862549,0.0155029,-0.497864,0.0892944
3.85615,8.92188,-0.496094,3.06641,-0.0859375,-0.0078125,0,0.862549,0.0155029,-0.497864,0.0892944
3.88475,8.92188,-0.496094,3.06641,0.0722656,-0.0839844,-0.0839844,0.862549,0.0155029,-0.497864,0.0892944
3.9118,8.92188,-0.496094,3.06641,0.09375,0.0292969,-0.144531,0.862549,0.0155029,-0.497864,0.0892944
3.9393,9.76953,-0.304688,3.52344,0.09375,0.0292969,-0.144531,0.862549,0.0155029,-0.497864,0.0892944
3.96533,9.19531,-1.03516,2.67969,0.09375,0.0292969,-0.144531,0.862549,0.0155029,-0.497864,0.0892944
3.99321,9.19531,-1.03516,2.67969,0.123047,0,-0.130859,0.862549,0.0155029,-0.497864,0.0892944
4.02027,9.19531,-1.03516,2.67969,0.046875,-0.0175781,-0.126953,0.862549,0.0155029,-0.497864,0.0892944
4.04629,9.19531,-1.03516,2.67969,0.0195312,0.0117188,0.0234375,0.862549,0.0155029,-0.497864,0.0892944
4.07485,9.19531,-1.03516,2.67969,-0.0273438,-0.00195312,0.0820312,0.862549,0.0155029,-0.497864,0.0892944
4.10202,9.19531,-1.03516,2.67969,0.142578,-0.0253906,-0.0664062,0.862549,0.0155029,-0.497864,0.0892944
4.13054,8.88281,-0.230469,3.48438,0.142578,-0.0253906,-0.0664062,0.862549,0.0155029,-0.497864,0.0892944
4.15656,8.73828,-0.765625,2.91016,0.142578,-0.0253906,-0.0664062,0.862549,0.0155029,-0.497864,0.0892944
4.18473,8.73828,-0.765625,2.91016,0.142578,-0.0253906,-0.0664062,0.809265,0.0315552,-0.58075,0.0828247
4.21178,8.73828,-0.765625,2.91016,0.177734,-0.0351562,-0.125,0.809265,0.0315552,-0.58075,0.0828247
4.24,8.73828,-0.765625,2.91016,0.335938,-0.0449219,-0.138672,0.809265,0.0315552,-0.58075,0.0828247
4.26605,9.76953,-0.152344,3.02734,0.335938,-0.0449219,-0.138672,0.809265,0.0315552,-0.58075,0.0828247
4.29452,9.76953,-0.152344,3.02734,0.210938,0.0761719,0.0332031,0.809265,0.0315552,-0.58075,0.0828247
4.32165,8.77734,-0.765625,2.83594,0.210938,0.0761719,0.0332031,0.809265,0.0315552,-0.58075,0.0828247
4.34973,8.77734,-0.765625,2.83594,0.130859,-0.0253906,-0.00976562,0.809265,0.0315552,-0.58075,0.0828247
4.3758,8.92578,0.078125,2.71875,0.130859,-0.0253906,-0.00976562,0.809265,0.0315552,-0.58075,0.0828247
4.40468,8.92578,0.078125,2.71875,0.195312,-0.0722656,0.138672,0.809265,0.0315552,-0.58075,0.0828247
4.43132,8.39062,-0.726562,3.79297,0.195312,-0.0722656,0.138672,0.809265,0.0315552,-0.58075,0.0828247
4.45943,9.76562,-0.191406,2.87109,0.195312,-0.0722656,0.138672,0.809265,0.0315552,-0.58075,0.0828247
4.48547,0.410156,-0.0234375,-0.425781,0.195312,-0.0722656,0.138672,0.809265,0.0315552,-0.58075,0.0828247
4.51402,0.410156,-0.0234375,-0.425781,0.320312,-0.224609,-0.228516,0.809265,0.0315552,-0.58075,0.0828247
4.54108,0.410156,-0.0234375,-0.425781,0.177734,0.0292969,0.00976562,0.809265,0.0315552,-0.58075,0.0828247
4.56919,8.73438,-0.078125,2.48828,0.177734,0.0292969,0.00976562,0.809265,0.0315552,-0.58075,0.0828247
4.59522,0.632812,0.515625,0.03125,0.177734,0.0292969,0.00976562,0.809265,0.0315552,-0.58075,0.0828247
4.62409,0.632812,0.515625,0.03125,0.263672,-0.201172,-0.375,0.809265,0.0315552,-0.58075,0.0828247
4.65117,0.632812,0.515625,0.03125,0.28125,-0.0527344,-0.0917969,0.809265,0.0315552,-0.58075,0.0828247
4.67863,0.632812,0.515625,0.03125,0.398438,-0.0761719,0.046875,0.809265,0.0315552,-0.58075,0.0828247
4.70474,0.289062,0.339844,-0.386719,0.398438,-0.0761719,0.046875,0.809265,0.0315552,-0.58075,0.0828247
4.73359,0.289062,0.339844,-0.386719,0.380859,-0.246094,0.0976562,0.809265,0.0315552,-0.58075,0.0828247
4.76077,10.1484,1.14844,1.49219,0.380859,-0.246094,0.0976562,0.809265,0.0315552,-0.58075,0.0828247
4.78989,8.35156,0.230469,1.91406,0.380859,-0.246094,0.0976562,0.809265,0.0315552,-0.58075,0.0828247
4.81601,8.35156,0.230469,1.91406,0.380859,-0.246094,0.0976562,0.784973,0.121094,-0.598816,0.103027
4.84463,8.35156,0.230469,1.91406,0.332031,-0.128906,-0.208984,0.784973,0.121094,-0.598816,0.103027
4.87194,8.35156,0.230469,1.91406,0.351562,-0.164062,-0.318359,0.784973,0.121094,-0.598816,0.103027
4.89941,8.35156,0.230469,1.91406,0.337891,-0.214844,-0.318359,0.784973,0.121094,-0.598816,0.103027
4.92648,8.35156,0.230469,1.91406,0.451172,-0.111328,-0.277344,0.784973,0.121094,-0.598816,0.103027
4.94964,8.35156,0.230469,1.91406,0.390625,-0.0800781,-0.15625,0.784973,0.121094,-0.598816,0.103027
4.97201,9.30469,0.304688,2.41406,0.390625,-0.0800781,-0.15625,0.784973,0.121094,-0.598816,0.103027
4.99545,9.30469,0.304688,2.41406,0.126953,-0.0253906,-0.109375,0.784973,0.121094,-0.598816,0.103027
5.01778,9.53906,0.613281,2.18359,0.126953,-0.0253906,-0.109375,0.784973,0.121094,-0.598816,0.103027
5.04388,10.7656,1.53125,1.95312,0.126953,-0.0253906,-0.109375,0.784973,0.121094,-0.598816,0.103027
5.07244,10.7656,1.53125,1.95312,0.00976562,-0.0917969,0.0703125,0.784973,0.121094,-0.598816,0.103027
5.09915,9.46094,0.535156,1.91406,0.00976562,-0.0917969,0.0703125,0.784973,0.121094,-0.598816,0.103027
5.12664,9.38281,0.882812,2.03125,0.00976562,-0.0917969,0.0703125,0.784973,0.121094,-0.598816,0.103027
5.15313,9.38281,0.882812,2.03125,-0.0644531,-0.0703125,0.0800781,0.784973,0.121094,-0.598816,0.103027
5.18165,8.69531,0.957031,2.26172,-0.0644531,-0.0703125,0.0800781,0.784973,0.121094,-0.598816,0.103027
5.20831,8.69531,0.957031,2.26172,0.00585938,-0.0703125,-0.207031,0.784973,0.121094,-0.598816,0.103027
5.23619,8.84766,1.10938,1.49219,0.00585938,-0.0703125,-0.207031,0.784973,0.121094,-0.598816,0.103027
5.26327,8.84766,1.10938,1.49219,0.0820312,-0.140625,-0.371094,0.784973,0.121094,-0.598816,0.103027
5.2922,8.84766,1.10938,1.49219,-0.015625,-0.0332031,-0.246094,0.784973,0.121094,-0.598816,0.103027
5.31934,10.0742,1.60938,1.14844,-0.015625,-0.0332031,-0.246094,0.784973,0.121094,-0.598816,0.103027
5.34542,9.07812,1.41797,2.18359,-0.015625,-0.0332031,-0.246094,0.784973,0.121094,-0.598816,0.103027
5.37393,9.07812,1.41797,2.18359,0.0234375,-0.0917969,0.00976562,0.784973,0.121094,-0.598816,0.103027
5.40101,9.07812,1.41797,2.18359,-0.101562,0.0136719,-0.125,0.784973,0.121094,-0.598816,0.103027
5.42847,9.6875,1.91406,1.57031,-0.101562,0.0136719,-0.125,0.784973,0.121094,-0.598816,0.103027
5.45479,0.707031,0.710938,-0.28125,-0.101562,0.0136719,-0.125,0.784973,0.121094,-0.598816,0.103027
5.48295,0.707031,0.710938,-0.28125,-0.0722656,0.0976562,0.152344,0.784973,0.121094,-0.598816,0.103027
